{"resourceType":"Organization","id":"180a8812-90ea-5446-a541-e5b84aeee9eb","meta":{"profile":["https://fhir.regionstockholm.se/StructureDefinition/KarolinskaOrganizationSEVendorLite","https://commonprofiles.care/StructureDefinition/OrganizationSEVendorLite"]},"identifier":[{"use":"official","type":{"coding":[{"system":"http://terminology.hl7.org/CodeSystem/v2-0203","code":"PRN"}]},"system":"urn:oid:1.2.752.29.4.19","value":"SE2321000016-39KJ"},{"use":"official","type":{"coding":[{"system":"http://terminology.hl7.org/CodeSystem/v2-0203","code":"XX"}]},"system":"urn:oid:2.5.4.97","value":"2321000016"}],"active":true,"name":"Stockholms Läns Landsting"}
{"resourceType":"Organization","id":"31410fc1-dc55-5098-815a-325ee5acc17e","meta":{"profile":["https://fhir.regionstockholm.se/StructureDefinition/KarolinskaOrganizationSEVendorLite","https://commonprofiles.care/StructureDefinition/OrganizationSEVendorLite"]},"identifier":[{"use":"official","type":{"coding":[{"system":"http://terminology.hl7.org/CodeSystem/v2-0203","code":"PRN"}]},"system":"urn:oid:1.2.752.29.4.19","value":"SE2321000016-2D8S"},{"use":"official","type":{"coding":[{"system":"http://terminology.hl7.org/CodeSystem/v2-0203","code":"XX"}]},"system":"urn:oid:2.5.4.97","value":"2321000016"}],"active":true,"type":[{"coding":[{"system":"http://snomed.info/sct","version":"http://snomed.info/sct/45991000052106/version/20220531","code":"143591000052106","display":"Snomed CT concept 143591000052106 | vårdgivare|"}]}],"name":"Karolinska Universitetssjukhuset","partOf":{"reference":"Organization/180a8812-90ea-5446-a541-e5b84aeee9eb","type":"Organization"}}
{"resourceType":"Organization","id":"0b13bfe4-3f4f-529f-9e20-b5cc592b43f3","meta":{"profile":["https://fhir.regionstockholm.se/StructureDefinition/KarolinskaOrganizationSEVendorLite","https://commonprofiles.care/StructureDefinition/OrganizationSEVendorLite"]},"extension":[{"url":"https://commonprofiles.care/StructureDefinition/common-hsaHierarchy","extension":[{"url":"hsaCareProvider","valueReference":{"reference":"Organization/31410fc1-dc55-5098-815a-325ee5acc17e","type":"Organization"}}]}],"identifier":[{"use":"official","type":{"coding":[{"system":"http://terminology.hl7.org/CodeSystem/v2-0203","code":"PRN"}]},"system":"urn:oid:1.2.752.29.4.19","value":"SE2321000016-BVZN"}],"active":true,"name":"Tema Cancer","partOf":{"reference":"Organization/31410fc1-dc55-5098-815a-325ee5acc17e","type":"Organization"}}
{"resourceType":"Organization","id":"439d3408-ed0d-52a5-819c-3a4365cb85e7","meta":{"profile":["https://fhir.regionstockholm.se/StructureDefinition/KarolinskaOrganizationSEVendorLite","https://commonprofiles.care/StructureDefinition/OrganizationSEVendorLite"]},"extension":[{"url":"https://commonprofiles.care/StructureDefinition/common-hsaHierarchy","extension":[{"url":"hsaCareProvider","valueReference":{"reference":"Organization/31410fc1-dc55-5098-815a-325ee5acc17e","type":"Organization"}}]}],"identifier":[{"use":"official","type":{"coding":[{"system":"http://terminology.hl7.org/CodeSystem/v2-0203","code":"PRN"}]},"system":"urn:oid:1.2.752.29.4.19","value":"SE2321000016-BW01"},{"use":"official","type":{"coding":[{"system":"http://terminology.hl7.org/CodeSystem/v2-0203","code":"PRN"}]},"system":"https://uid.regionstockholm.se/kombika","value":"11003741720"}],"active":true,"type":[{"coding":[{"system":"http://snomed.info/sct","version":"http://snomed.info/sct/45991000052106/version/20220531","code":"43741000","display":"Snomed CT concept 43741000| vårdenhet|"}]}],"name":"OO Cancer TC","partOf":{"reference":"Organization/0b13bfe4-3f4f-529f-9e20-b5cc592b43f3","type":"Organization"}}
{"resourceType":"Organization","id":"dccf3ae9-3cd1-5a91-a30e-0ab86c809f97","meta":{"profile":["https://fhir.regionstockholm.se/StructureDefinition/KarolinskaOrganizationSEVendorLite","https://commonprofiles.care/StructureDefinition/OrganizationSEVendorLite"]},"extension":[{"url":"https://commonprofiles.care/StructureDefinition/common-hsaHierarchy","extension":[{"url":"hsaCareProvider","valueReference":{"reference":"Organization/31410fc1-dc55-5098-815a-325ee5acc17e","type":"Organization"}}]}],"identifier":[{"use":"official","type":{"coding":[{"system":"http://terminology.hl7.org/CodeSystem/v2-0203","code":"PRN"}]},"system":"urn:oid:1.2.752.29.4.19","value":"SE2321000016-FRWW"}],"active":true,"type":[{"coding":[{"system":"http://snomed.info/sct","version":"http://snomed.info/sct/45991000052106/version/20220531","code":"43741000","display":"Snomed CT concept 43741000| vårdenhet|"}]}],"name":"ME Medicinsk behandlingsavdelning MBA","partOf":{"reference":"Organization/0b13bfe4-3f4f-529f-9e20-b5cc592b43f3","type":"Organization"}}
{"resourceType":"Organization","id":"80a3c1e7-d25e-574e-8ac7-584e7988f507","meta":{"profile":["https://fhir.regionstockholm.se/StructureDefinition/KarolinskaOrganizationSEVendorLite","https://commonprofiles.care/StructureDefinition/OrganizationSEVendorLite"]},"extension":[{"url":"https://commonprofiles.care/StructureDefinition/common-hsaHierarchy","extension":[{"url":"hsaCareProvider","valueReference":{"reference":"Organization/31410fc1-dc55-5098-815a-325ee5acc17e","type":"Organization"}}]}],"identifier":[{"use":"official","type":{"coding":[{"system":"http://terminology.hl7.org/CodeSystem/v2-0203","code":"PRN"}]},"system":"urn:oid:1.2.752.29.4.19","value":"SE2321000016-FRX7"}],"active":true,"name":"OE Medicinsk behandlingsavdelning MBA","partOf":{"reference":"Organization/dccf3ae9-3cd1-5a91-a30e-0ab86c809f97","type":"Organization"}}
{"resourceType":"Organization","id":"d20d19a3-8de6-534d-a6c7-ac8097586187","meta":{"profile":["https://fhir.regionstockholm.se/StructureDefinition/KarolinskaOrganizationSEVendorLite","https://commonprofiles.care/StructureDefinition/OrganizationSEVendorLite"]},"extension":[{"url":"https://commonprofiles.care/StructureDefinition/common-hsaHierarchy","extension":[{"url":"hsaCareUnit","valueReference":{"reference":"Organization/439d3408-ed0d-52a5-819c-3a4365cb85e7","type":"Organization"}},{"url":"hsaCareProvider","valueReference":{"reference":"Organization/31410fc1-dc55-5098-815a-325ee5acc17e","type":"Organization"}}]}],"identifier":[{"use":"official","type":{"coding":[{"system":"http://terminology.hl7.org/CodeSystem/v2-0203","code":"PRN"}]},"system":"urn:oid:1.2.752.29.4.19","value":"SE2321000016-D3G2"},{"use":"official","type":{"coding":[{"system":"http://terminology.hl7.org/CodeSystem/v2-0203","code":"PRN"}]},"system":"https://uid.regionstockholm.se/kombika","value":"11010741V01"},{"use":"official","system":"https://uid.regionstockholm.se/takecare/unitId","value":"985"}],"active":true,"name":"Medicinska behandlingsavdelning Danderyd","alias":["DS MBA"],"partOf":{"reference":"Organization/80a3c1e7-d25e-574e-8ac7-584e7988f507","type":"Organization"}}
{"resourceType":"Organization","id":"711cceaf-fed4-529d-b5e4-f41bf183256d","meta":{"profile":["https://fhir.regionstockholm.se/StructureDefinition/KarolinskaOrganizationSEVendorLite","https://commonprofiles.care/StructureDefinition/OrganizationSEVendorLite"]},"extension":[{"url":"https://commonprofiles.care/StructureDefinition/common-hsaHierarchy","extension":[{"url":"hsaCareUnit","valueReference":{"reference":"Organization/439d3408-ed0d-52a5-819c-3a4365cb85e7","type":"Organization"}},{"url":"hsaCareProvider","valueReference":{"reference":"Organization/31410fc1-dc55-5098-815a-325ee5acc17e","type":"Organization"}}]}],"identifier":[{"use":"official","type":{"coding":[{"system":"http://terminology.hl7.org/CodeSystem/v2-0203","code":"PRN"}]},"system":"urn:oid:1.2.752.29.4.19","value":"SE2321000016-C4DZ"},{"use":"official","type":{"coding":[{"system":"http://terminology.hl7.org/CodeSystem/v2-0203","code":"PRN"}]},"system":"https://uid.regionstockholm.se/kombika","value":"11003741V10"},{"use":"official","system":"https://uid.regionstockholm.se/takecare/unitId","value":"780"}],"active":true,"name":"Medicinsk behandlingsavdelning G4 Solna","alias":["S MBA G4"],"partOf":{"reference":"Organization/80a3c1e7-d25e-574e-8ac7-584e7988f507","type":"Organization"}}
{"resourceType":"Organization","id":"a5a9a583-a338-5384-906d-2ba053547aa3","meta":{"profile":["https://fhir.regionstockholm.se/StructureDefinition/KarolinskaOrganizationSEVendorLite","https://commonprofiles.care/StructureDefinition/OrganizationSEVendorLite"]},"extension":[{"url":"https://commonprofiles.care/StructureDefinition/common-hsaHierarchy","extension":[{"url":"hsaCareUnit","valueReference":{"reference":"Organization/439d3408-ed0d-52a5-819c-3a4365cb85e7","type":"Organization"}},{"url":"hsaCareProvider","valueReference":{"reference":"Organization/31410fc1-dc55-5098-815a-325ee5acc17e","type":"Organization"}}]}],"identifier":[{"use":"official","type":{"coding":[{"system":"http://terminology.hl7.org/CodeSystem/v2-0203","code":"PRN"}]},"system":"urn:oid:1.2.752.29.4.19","value":"SE2321000016-C4DV"},{"use":"official","type":{"coding":[{"system":"http://terminology.hl7.org/CodeSystem/v2-0203","code":"PRN"}]},"system":"https://uid.regionstockholm.se/kombika","value":"11003741V05"},{"use":"official","system":"https://uid.regionstockholm.se/takecare/unitId","value":"771"}],"active":true,"name":"MBA Bäckencancer Solna","alias":["S Bäckencancer MBA"],"partOf":{"reference":"Organization/80a3c1e7-d25e-574e-8ac7-584e7988f507","type":"Organization"}}
{"resourceType":"Organization","id":"ef52a21e-3b2d-5346-9656-2068e0332ce7","meta":{"profile":["https://fhir.regionstockholm.se/StructureDefinition/KarolinskaOrganizationSEVendorLite","https://commonprofiles.care/StructureDefinition/OrganizationSEVendorLite"]},"extension":[{"url":"https://commonprofiles.care/StructureDefinition/common-hsaHierarchy","extension":[{"url":"hsaCareUnit","valueReference":{"reference":"Organization/439d3408-ed0d-52a5-819c-3a4365cb85e7","type":"Organization"}},{"url":"hsaCareProvider","valueReference":{"reference":"Organization/31410fc1-dc55-5098-815a-325ee5acc17e","type":"Organization"}}]}],"identifier":[{"use":"official","type":{"coding":[{"system":"http://terminology.hl7.org/CodeSystem/v2-0203","code":"PRN"}]},"system":"urn:oid:1.2.752.29.4.19","value":"SE2321000016-CCJ3"},{"use":"official","type":{"coding":[{"system":"http://terminology.hl7.org/CodeSystem/v2-0203","code":"PRN"}]},"system":"https://uid.regionstockholm.se/kombika","value":"11003741V07"},{"use":"official","system":"https://uid.regionstockholm.se/takecare/unitId","value":"796"}],"active":true,"name":"Medicinsk behandlingsavdelning B8 Solna","alias":["S MBA B8"],"partOf":{"reference":"Organization/80a3c1e7-d25e-574e-8ac7-584e7988f507","type":"Organization"}}
{"resourceType":"Organization","id":"8e1c26ec-d700-5515-b127-14481106fe4b","meta":{"profile":["https://fhir.regionstockholm.se/StructureDefinition/KarolinskaOrganizationSEVendorLite","https://commonprofiles.care/StructureDefinition/OrganizationSEVendorLite"]},"extension":[{"url":"https://commonprofiles.care/StructureDefinition/common-hsaHierarchy","extension":[{"url":"hsaCareUnit","valueReference":{"reference":"Organization/439d3408-ed0d-52a5-819c-3a4365cb85e7","type":"Organization"}},{"url":"hsaCareProvider","valueReference":{"reference":"Organization/31410fc1-dc55-5098-815a-325ee5acc17e","type":"Organization"}}]}],"identifier":[{"use":"official","type":{"coding":[{"system":"http://terminology.hl7.org/CodeSystem/v2-0203","code":"PRN"}]},"system":"urn:oid:1.2.752.29.4.19","value":"SE2321000016-C4DS"},{"use":"official","type":{"coding":[{"system":"http://terminology.hl7.org/CodeSystem/v2-0203","code":"PRN"}]},"system":"https://uid.regionstockholm.se/kombika","value":"11003741V03"},{"use":"official","system":"https://uid.regionstockholm.se/takecare/unitId","value":"769"}],"active":true,"name":"Medicinsk behandlingsavdelning A9 Solna","alias":["S MBA A10"],"partOf":{"reference":"Organization/80a3c1e7-d25e-574e-8ac7-584e7988f507","type":"Organization"}}
